Folder: PCM/A1 Cure Kinetics

File: lme_0_11.txt
Filename:	d:\clemens 2016\lme_0_11.drdd
Operator ID:
Sample ID:	LME_0_11
Comment: 	Isothermal 180C 4h
Serial Number:	587P2203
Data Collected:	10/10/16 15:01
Sample Weight:	14.400 mg
Display Weight:	14.400
Validation
Validated:	No
By:
Date:
Calibration Information
Filename:	C:\Program Files\PerkinElmer\Pyris\Calibrations\default.drdc
Heat flow unit: mW/s
Initial Conditions
Temperature:	 30.00 °C
Y Initial:	20.00 mW
Sample Rate:	Standard
Baseline Filename:	D:\foostrum\FiberCore baseline.drdd
End Condition:	Go To Load
Total Points in Run:	14490
Method Steps:
Pre-Run Actions
Start the Run
	Action occurs Immediately
Switch the Gas to Nitrogen at 20.0 ml/min
	Action occurs Immediately
1)	Heat from 30.00°C to 180.00°C at 100.00°C/min

2)	Hold for 240.0 min at 180.00°C

1) Sapphire DSC Temperature Scan
	Time     	Unsubtracted	Baseline     	Program     	Sample     	Approx.     	Heat Flow
	          	Heat Flow 	Heat Flow     	Temperature	Temperature	Gas Flow     	Calibration
	0.000000	-1.601.652	0.000000	31.666.667	35.596.279	0.000000	1.480.999
	0.016667	-1.541.978	0.000000	31.666.667	35.608.078	0.000000	1.480.999
	0.033333	-1.481.104	0.000000	33.333.333	35.618.061	0.000000	1.480.999
	0.050000	-1.429.834	0.000000	35.000.000	35.627.441	0.000000	1.480.999
	0.066667	-1.375.740	0.000000	36.666.667	35.637.123	0.000000	1.480.999
	0.083333	-1.325.812	0.000000	38.333.333	35.647.110	0.000000	1.480.999
	0.100000	-1.259.712	0.000000	40.000.000	35.658.604	0.000000	1.480.999
	0.116667	-1.177.793	0.000000	41.666.667	35.676.758	0.000000	1.480.999
	0.133333	-1.054.138	0.000000	43.333.333	35.704.895	0.000000	1.480.999
	0.150000	-0.906826	0.000000	45.000.000	35.747.253	0.000000	1.480.999
	0.166667	-0.725334	0.000000	46.666.667	35.810.791	0.000000	1.480.999
	0.183333	-0.492360	0.000000	48.333.333	35.898.834	0.000000	1.480.999
	0.200000	-0.254442	0.000000	50.000.000	36.018.948	0.000000	1.480.999
	0.216667	0.028036	0.000000	51.666.667	36.171.738	0.000000	1.480.999
	0.233333	0.295755	0.000000	53.333.333	36.366.280	0.000000	1.480.999
	0.250000	0.591227	0.000000	55.000.000	36.599.247	0.000000	1.480.999
	0.266667	0.857675	0.000000	56.666.667	36.886.673	0.000000	1.480.999
	0.283333	1.110.351	0.000000	58.333.333	37.218.273	0.000000	1.480.999
	0.300000	1.327.507	0.000000	60.000.000	37.600.399	0.000000	1.480.999
	0.316667	1.547.204	0.000000	61.666.667	38.027.607	0.000000	1.480.999
	0.333333	1.717.750	0.000000	63.333.333	38.504.128	0.000000	1.480.999
	0.350000	1.853.693	0.000000	65.000.000	39.026.642	0.000000	1.480.999
	0.366667	1.957.927	0.000000	66.666.667	39.593.929	0.000000	1.480.999
	0.383333	2.008.561	0.000000	68.333.333	40.218.403	0.000000	1.480.999
	0.400000	2.013.081	0.000000	70.000.000	40.886.745	0.000000	1.480.999
	0.416667	1.970.215	0.000000	71.666.667	41.614.086	0.000000	1.480.999
	0.433333	1.868.664	0.000000	73.333.333	42.382.877	0.000000	1.480.999
	0.450000	1.727.284	0.000000	75.000.000	43.209.454	0.000000	1.480.999
	0.466667	1.515.072	0.000000	76.666.667	44.075.970	0.000000	1.480.999
	0.483333	1.272.423	0.000000	78.333.333	44.995.434	0.000000	1.480.999
	0.500000	0.952658	0.000000	80.000.000	45.952.137	0.000000	1.480.999
	0.516667	0.614249	0.000000	81.666.667	46.949.326	0.000000	1.480.999
	0.533333	0.231985	0.000000	83.333.333	47.993.958	0.000000	1.480.999
	0.550000	-0.213907	0.000000	85.000.000	49.068.314	0.000000	1.480.999
	0.566667	-0.669332	0.000000	86.666.667	50.187.263	0.000000	1.480.999
	0.583333	-1.224.755	0.000000	88.333.333	51.332.405	0.000000	1.480.999
	0.600000	-1.768.879	0.000000	90.000.000	52.526.333	0.000000	1.480.999
	0.616667	-2.403.960	0.000000	91.666.667	53.742.546	0.000000	1.480.999
	0.633333	-3.012.842	0.000000	93.333.333	55.007.038	0.000000	1.480.999
	0.650000	-3.717.060	0.000000	95.000.000	56.296.040	0.000000	1.480.999
	0.666667	-4.383.497	0.000000	96.666.667	57.623.890	0.000000	1.480.999
	0.683333	-5.070.414	0.000000	98.333.333	58.978.043	0.000000	1.480.999
	0.700000	-5.850.548	0.000000	100.000.000	60.353.115	0.000000	1.480.999
	0.716667	-6.576.164	0.000000	101.666.667	61.763.168	0.000000	1.480.999
	0.733333	-7.390.902	0.000000	103.333.333	63.182.976	0.000000	1.480.999
	0.750000	-8.142.576	0.000000	105.000.000	64.639.091	0.000000	1.480.999
	0.766667	-8.976.876	0.000000	106.666.667	66.094.589	0.000000	1.480.999
	0.783333	-9.740.485	0.000000	108.333.333	67.586.044	0.000000	1.480.999
	0.800000	-10.581.846	0.000000	110.000.000	69.079.239	0.000000	1.480.999
	0.816667	-11.350.470	0.000000	111.666.667	70.602.699	0.000000	1.480.999
	0.833333	-12.190.843	0.000000	113.333.333	72.130.035	0.000000	1.480.999
	0.850000	-12.952.616	0.000000	115.000.000	73.674.332	0.000000	1.480.999
	0.866667	-13.707.398	0.000000	116.666.667	75.232.002	0.000000	1.480.999
	0.883333	-14.531.246	0.000000	118.333.333	76.789.383	0.000000	1.480.999
	0.900000	-15.270.490	0.000000	120.000.000	78.373.199	0.000000	1.480.999
	0.916667	-16.070.610	0.000000	121.666.667	79.950.020	0.000000	1.480.999
	0.933333	-16.779.137	0.000000	123.333.333	81.547.928	0.000000	1.480.999
	0.950000	-17.546.983	0.000000	125.000.000	83.138.718	0.000000	1.480.999
	0.966667	-18.230.580	0.000000	126.666.667	84.756.607	0.000000	1.480.999
	0.983333	-18.965.306	0.000000	128.333.333	86.361.702	0.000000	1.480.999
	1.000.000	-19.614.865	0.000000	130.000.000	87.983.719	0.000000	1.480.999
	1.016.667	-20.247.969	0.000000	131.666.667	89.601.875	0.000000	1.480.999
	1.033.333	-20.920.479	0.000000	133.333.333	91.222.115	0.000000	1.480.999
	1.050.000	-21.510.152	0.000000	135.000.000	92.850.365	0.000000	1.480.999
	1.066.667	-22.133.158	0.000000	136.666.667	94.471.497	0.000000	1.480.999
	1.083.333	-22.677.635	0.000000	138.333.333	96.106.583	0.000000	1.480.999
	1.100.000	-23.256.927	0.000000	140.000.000	97.727.715	0.000000	1.480.999
	1.116.667	-23.765.105	0.000000	141.666.667	99.369.637	0.000000	1.480.999
	1.133.333	-24.305.417	0.000000	143.333.333	100.999.985	0.000000	1.480.999
	1.150.000	-24.779.626	0.000000	145.000.000	102.644.714	0.000000	1.480.999
	1.166.667	-25.287.664	0.000000	146.666.667	104.273.544	0.000000	1.480.999
	1.183.333	-25.737.367	0.000000	148.333.333	105.908.028	0.000000	1.480.999
	1.200.000	-26.175.705	0.000000	150.000.000	107.545.113	0.000000	1.480.999
	1.216.667	-26.643.065	0.000000	151.666.667	109.178.101	0.000000	1.480.999
	1.233.333	-27.054.988	0.000000	153.333.333	110.820.656	0.000000	1.480.999
	1.250.000	-27.497.631	0.000000	155.000.000	112.446.175	0.000000	1.480.999
	1.266.667	-27.889.641	0.000000	156.666.667	114.086.342	0.000000	1.480.999
	1.283.333	-28.309.756	0.000000	158.333.333	115.706.482	0.000000	1.480.999
	1.300.000	-28.682.980	0.000000	160.000.000	117.340.370	0.000000	1.480.999
	1.316.667	-29.083.041	0.000000	161.666.667	118.961.472	0.000000	1.480.999
	1.333.333	-29.434.937	0.000000	163.333.333	120.594.627	0.000000	1.480.999
	1.350.000	-29.773.276	0.000000	165.000.000	122.218.452	0.000000	1.480.999
	1.366.667	-30.125.034	0.000000	166.666.667	123.841.080	0.000000	1.480.999
	1.383.333	-30.424.953	0.000000	168.333.333	125.465.813	0.000000	1.480.999
	1.400.000	-30.726.640	0.000000	170.000.000	127.086.517	0.000000	1.480.999
	1.416.667	-30.969.854	0.000000	171.666.667	128.726.669	0.000000	1.480.999
	1.433.333	-31.194.989	0.000000	173.333.333	130.345.032	0.000000	1.480.999
	1.450.000	-31.353.248	0.000000	175.000.000	131.976.700	0.000000	1.480.999
	1.466.667	-31.469.770	0.000000	176.666.667	133.592.041	0.000000	1.480.999
	1.483.333	-31.519.629	0.000000	178.333.333	135.224.625	0.000000	1.480.999
2) Sapphire DSC Isothermal
	1.500.000	-31.510.234	0.000000	180.000.000	136.840.271	0.000000	1.480.999
	3.300.000	8.479.290	0.000000	180.000.000	181.459.473	0.000000	1.480.999
	5.100.000	12.306.235	0.000000	180.000.000	182.229.492	0.000000	1.480.999
	6.900.000	11.262.477	0.000000	180.000.000	182.385.483	0.000000	1.480.999
	8.700.000	7.772.530	0.000000	180.000.000	182.269.821	0.000000	1.480.999
	10.500.000	5.204.873	0.000000	180.000.000	182.146.393	0.000000	1.480.999
	12.300.000	3.628.080	0.000000	180.000.000	182.095.215	0.000000	1.480.999
	14.100.000	2.622.952	0.000000	180.000.000	182.076.294	0.000000	1.480.999
	15.900.000	1.955.879	0.000000	180.000.000	182.078.781	0.000000	1.480.999
	17.700.000	1.470.087	0.000000	180.000.000	182.081.573	0.000000	1.480.999
	19.500.000	1.112.682	0.000000	180.000.000	182.069.168	0.000000	1.480.999
	21.300.000	0.835853	0.000000	180.000.000	182.070.724	0.000000	1.480.999
	23.100.000	0.624206	0.000000	180.000.000	182.070.724	0.000000	1.480.999
	24.900.000	0.443985	0.000000	180.000.000	182.071.655	0.000000	1.480.999
	26.700.000	0.304794	0.000000	180.000.000	182.080.017	0.000000	1.480.999
	28.500.000	0.193498	0.000000	180.000.000	182.065.445	0.000000	1.480.999
	30.300.000	0.095054	0.000000	180.000.000	182.065.445	0.000000	1.480.999
	32.100.000	0.018149	0.000000	180.000.000	182.073.517	0.000000	1.480.999
	33.900.000	-0.043784	0.000000	180.000.000	182.074.432	0.000000	1.480.999
	35.700.000	-0.096396	0.000000	180.000.000	182.068.237	0.000000	1.480.999
	37.500.000	-0.145053	0.000000	180.000.000	182.086.838	0.000000	1.480.999
	39.300.000	-0.176337	0.000000	180.000.000	182.083.740	0.000000	1.480.999
	41.100.000	-0.203172	0.000000	180.000.000	182.082.199	0.000000	1.480.999
	42.900.000	-0.208398	0.000000	180.000.000	182.067.932	0.000000	1.480.999
	44.700.000	-0.251759	0.000000	180.000.000	182.046.524	0.000000	1.480.999
	46.500.000	-0.275628	0.000000	180.000.000	182.063.889	0.000000	1.480.999
	48.300.000	-0.285939	0.000000	180.000.000	182.056.137	0.000000	1.480.999
	50.100.000	-0.302464	0.000000	180.000.000	182.050.247	0.000000	1.480.999
	51.900.000	-0.320895	0.000000	180.000.000	182.062.653	0.000000	1.480.999
	53.700.000	-0.330288	0.000000	180.000.000	182.052.109	0.000000	1.480.999
	55.500.000	-0.336855	0.000000	180.000.000	182.056.763	0.000000	1.480.999
	57.300.000	-0.342293	0.000000	180.000.000	182.050.568	0.000000	1.480.999
	59.100.000	-0.352533	0.000000	180.000.000	182.071.030	0.000000	1.480.999
	60.900.000	-0.360795	0.000000	180.000.000	182.071.960	0.000000	1.480.999
	62.700.000	-0.370188	0.000000	180.000.000	182.095.215	0.000000	1.480.999
	64.500.000	-0.368422	0.000000	180.000.000	182.071.030	0.000000	1.480.999
	66.300.000	-0.372730	0.000000	180.000.000	182.075.989	0.000000	1.480.999
	68.100.000	-0.374072	0.000000	180.000.000	182.071.960	0.000000	1.480.999
	69.900.000	-0.383959	0.000000	180.000.000	182.083.740	0.000000	1.480.999
	71.700.000	-0.380710	0.000000	180.000.000	182.075.989	0.000000	1.480.999
	73.500.000	-0.386571	0.000000	180.000.000	182.078.156	0.000000	1.480.999
	75.300.000	-0.383111	0.000000	180.000.000	182.064.819	0.000000	1.480.999
	77.100.000	-0.383605	0.000000	180.000.000	182.084.976	0.000000	1.480.999
	78.900.000	-0.385300	0.000000	180.000.000	182.098.312	0.000000	1.480.999
	80.700.000	-0.401755	0.000000	180.000.000	182.138.641	0.000000	1.480.999
	82.500.000	-0.382687	0.000000	180.000.000	182.130.264	0.000000	1.480.999
	84.300.000	-0.389043	0.000000	180.000.000	182.143.600	0.000000	1.480.999
	86.100.000	-0.386713	0.000000	180.000.000	182.156.006	0.000000	1.480.999
	87.900.000	-0.385442	0.000000	180.000.000	182.158.173	0.000000	1.480.999
	89.700.000	-0.390102	0.000000	180.000.000	182.170.273	0.000000	1.480.999
	91.500.000	-0.388266	0.000000	180.000.000	182.161.270	0.000000	1.480.999
	93.300.000	-0.390385	0.000000	180.000.000	182.168.091	0.000000	1.480.999
	95.100.000	-0.388054	0.000000	180.000.000	182.156.616	0.000000	1.480.999
	96.900.000	-0.387490	0.000000	180.000.000	182.150.116	0.000000	1.480.999
	98.700.000	-0.389326	0.000000	180.000.000	182.171.509	0.000000	1.480.999
	100.500.000	-0.388266	0.000000	180.000.000	182.148.865	0.000000	1.480.999
	102.300.000	-0.388902	0.000000	180.000.000	182.148.254	0.000000	1.480.999
	104.100.000	-0.389749	0.000000	180.000.000	182.133.362	0.000000	1.480.999
	105.900.000	-0.387984	0.000000	180.000.000	182.132.126	0.000000	1.480.999
	107.700.000	-0.385230	0.000000	180.000.000	182.132.736	0.000000	1.480.999
	109.500.000	-0.390526	0.000000	180.000.000	182.133.987	0.000000	1.480.999
	111.300.000	-0.392292	0.000000	180.000.000	182.143.280	0.000000	1.480.999
	113.100.000	-0.391162	0.000000	180.000.000	182.149.490	0.000000	1.480.999
	114.900.000	-0.384806	0.000000	180.000.000	182.134.918	0.000000	1.480.999
	116.700.000	-0.386501	0.000000	180.000.000	182.140.488	0.000000	1.480.999
	118.500.000	-0.392645	0.000000	180.000.000	182.175.232	0.000000	1.480.999
	120.300.000	-0.389043	0.000000	180.000.000	182.172.440	0.000000	1.480.999
	122.100.000	-0.389891	0.000000	180.000.000	182.178.329	0.000000	1.480.999
	123.900.000	-0.385088	0.000000	180.000.000	182.171.509	0.000000	1.480.999
	125.700.000	-0.384241	0.000000	180.000.000	182.157.242	0.000000	1.480.999
	127.500.000	-0.387278	0.000000	180.000.000	182.159.103	0.000000	1.480.999
	129.300.000	-0.384735	0.000000	180.000.000	182.156.006	0.000000	1.480.999
	131.100.000	-0.391162	0.000000	180.000.000	182.150.116	0.000000	1.480.999
	132.900.000	-0.390950	0.000000	180.000.000	182.161.896	0.000000	1.480.999
	134.700.000	-0.390667	0.000000	180.000.000	182.177.704	0.000000	1.480.999
	136.500.000	-0.385865	0.000000	180.000.000	182.171.204	0.000000	1.480.999
	138.300.000	-0.392786	0.000000	180.000.000	182.160.660	0.000000	1.480.999
	140.100.000	-0.383605	0.000000	180.000.000	182.155.075	0.000000	1.480.999
	141.900.000	-0.390173	0.000000	180.000.000	182.170.578	0.000000	1.480.999
	143.700.000	-0.388337	0.000000	180.000.000	182.169.952	0.000000	1.480.999
	145.500.000	-0.386007	0.000000	180.000.000	182.156.006	0.000000	1.480.999
	147.300.000	-0.391727	0.000000	180.000.000	182.154.755	0.000000	1.480.999
	149.100.000	-0.393633	0.000000	180.000.000	182.154.755	0.000000	1.480.999
	150.900.000	-0.384100	0.000000	180.000.000	182.152.588	0.000000	1.480.999
	152.700.000	-0.391868	0.000000	180.000.000	182.166.550	0.000000	1.480.999
	154.500.000	-0.386713	0.000000	180.000.000	182.154.755	0.000000	1.480.999
	156.300.000	-0.391656	0.000000	180.000.000	182.158.173	0.000000	1.480.999
	158.100.000	-0.390173	0.000000	180.000.000	182.164.063	0.000000	1.480.999
	159.900.000	-0.386995	0.000000	180.000.000	182.154.449	0.000000	1.480.999
	161.700.000	-0.390809	0.000000	180.000.000	182.150.726	0.000000	1.480.999
	163.500.000	-0.392504	0.000000	180.000.000	182.159.409	0.000000	1.480.999
	165.300.000	-0.394128	0.000000	180.000.000	182.157.242	0.000000	1.480.999
	167.100.000	-0.391515	0.000000	180.000.000	182.164.688	0.000000	1.480.999
	168.900.000	-0.387490	0.000000	180.000.000	182.158.173	0.000000	1.480.999
	170.700.000	-0.381699	0.000000	180.000.000	182.141.113	0.000000	1.480.999
	172.500.000	-0.388408	0.000000	180.000.000	182.127.472	0.000000	1.480.999
	174.300.000	-0.388831	0.000000	180.000.000	182.150.421	0.000000	1.480.999
	176.100.000	-0.389608	0.000000	180.000.000	182.139.572	0.000000	1.480.999
	177.900.000	-0.390526	0.000000	180.000.000	182.128.708	0.000000	1.480.999
	179.700.000	-0.385018	0.000000	180.000.000	182.135.529	0.000000	1.480.999
	181.500.000	-0.394834	0.000000	180.000.000	182.155.075	0.000000	1.480.999
	183.300.000	-0.387984	0.000000	180.000.000	182.160.339	0.000000	1.480.999
	185.100.000	-0.388902	0.000000	180.000.000	182.145.767	0.000000	1.480.999
	186.900.000	-0.385583	0.000000	180.000.000	182.133.667	0.000000	1.480.999
	188.700.000	-0.389749	0.000000	180.000.000	182.128.403	0.000000	1.480.999
	190.500.000	-0.393139	0.000000	180.000.000	182.143.600	0.000000	1.480.999
	192.300.000	-0.395611	0.000000	180.000.000	182.147.934	0.000000	1.480.999
	194.100.000	-0.390879	0.000000	180.000.000	182.143.280	0.000000	1.480.999
	195.900.000	-0.389043	0.000000	180.000.000	182.139.877	0.000000	1.480.999
	197.700.000	-0.384594	0.000000	180.000.000	182.120.956	0.000000	1.480.999
	199.500.000	-0.388478	0.000000	180.000.000	182.132.736	0.000000	1.480.999
	201.300.000	-0.390173	0.000000	180.000.000	182.145.142	0.000000	1.480.999
	203.100.000	-0.389749	0.000000	180.000.000	182.146.072	0.000000	1.480.999
	204.900.000	-0.386360	0.000000	180.000.000	182.134.918	0.000000	1.480.999
	206.700.000	-0.388408	0.000000	180.000.000	182.146.698	0.000000	1.480.999
	208.500.000	-0.391162	0.000000	180.000.000	182.126.236	0.000000	1.480.999
	210.300.000	-0.392857	0.000000	180.000.000	182.142.670	0.000000	1.480.999
	212.100.000	-0.387913	0.000000	180.000.000	182.132.736	0.000000	1.480.999
	213.900.000	-0.388549	0.000000	180.000.000	182.123.123	0.000000	1.480.999
	215.700.000	-0.391091	0.000000	180.000.000	182.147.003	0.000000	1.480.999
	217.500.000	-0.386783	0.000000	180.000.000	182.139.877	0.000000	1.480.999
	219.300.000	-0.389891	0.000000	180.000.000	182.140.488	0.000000	1.480.999
	221.100.000	-0.388196	0.000000	180.000.000	182.139.877	0.000000	1.480.999
	222.900.000	-0.386783	0.000000	180.000.000	182.129.639	0.000000	1.480.999
	224.700.000	-0.389537	0.000000	180.000.000	182.129.333	0.000000	1.480.999
	226.500.000	-0.385936	0.000000	180.000.000	182.137.390	0.000000	1.480.999
	228.300.000	-0.393633	0.000000	180.000.000	182.133.987	0.000000	1.480.999
	230.100.000	-0.395611	0.000000	180.000.000	182.148.560	0.000000	1.480.999
	231.900.000	-0.390526	0.000000	180.000.000	182.147.003	0.000000	1.480.999
	233.700.000	-0.389396	0.000000	180.000.000	182.133.362	0.000000	1.480.999
	235.500.000	-0.394763	0.000000	180.000.000	182.151.962	0.000000	1.480.999
	237.300.000	-0.387913	0.000000	180.000.000	182.139.252	0.000000	1.480.999
	239.100.000	-0.394340	0.000000	180.000.000	182.129.013	0.000000	1.480.999
	240.900.000	-0.390244	0.000000	180.000.000	182.151.031	0.000000	1.480.999
	241.483.333	-0.395752	0.000000	180.000.000	182.166.229	0.000000	1.480.999
TEMPERATURE PID CALIBRATION VALUES:
	Proportional: 10  Integral: 500  Differential: 3

	SAMPLE TEMPERATURE CALIBRATION VALUES:
Reference	Expected (°C)	Measured (°C)	Method
Indium          	156.600	154.140
Tin             	232.000	232.000

K(x) = (0)x^3 + (0)x^2 + (0.9684)x + (7.3301)

SAMPLE TEMPERATURE CALIBRATION COMPUTED RESULTS:

		FURNACE CALIBRATION VALUES:
	Setpoint	Expected Temperature	Measured Temperature
	1	        50.000 °C		      49.000 °C
	2	       100.000 °C		      98.700 °C
	3	       150.000 °C		     146.900 °C
	4	       200.000 °C		     195.900 °C
	5	       250.000 °C		     245.000 °C
	6	       300.000 °C		     294.400 °C
	7	       350.000 °C		     343.400 °C
	8	       400.000 °C		     392.700 °C
	9	       450.000 °C		     441.700 °C
	10	       500.000 °C		     490.800 °C

	PROFILE VALUES FOR THIS DATA:

Software Version	11.0.0.0449
Firmware Version	1.2
Instrument Serial Number	587P2203
Load Temperature	30.0 °C
Go To Temp Rate	50.0 °C/min

NEWPAGE

	SAPPHIRE DSC HEAT OF FUSION CALIBRATION VALUES:
Reference	Temperature (°C)	Expected (W/g)	Measured (W/g)
Indium          	154.140	28.450	19.210

SAPPHIRE DSC HEAT OF FUSION CALIBRATION COMPUTED RESULTS:
Date:	07/11/13 18:01
K(x) = (0)x^3 + (0)x^2 + (0)x + (1.481)